Folder: smartstocks/collect-stocks/T

File: TGA.csv
,Date,Avg
1,01/10/2019,2.03
5,01/04/2019,1.92
9,12/28/2018,1.68
13,12/21/2018,1.595
17,12/17/2018,1.795
21,12/11/2018,1.865
25,12/04/2018,2.145
29,11/28/2018,2.015
33,11/21/2018,2.19
37,11/15/2018,2.155
41,11/09/2018,2.15
45,11/05/2018,2.36
49,10/30/2018,2.265
53,10/24/2018,2.25
57,10/18/2018,3.0125
61,10/12/2018,3.11
65,10/08/2018,3.23
69,10/02/2018,3.505
73,09/26/2018,3.385
77,09/20/2018,3.325
81,09/14/2018,3.595
85,09/10/2018,3.3725
89,09/04/2018,3.32
93,08/28/2018,3.475
97,08/22/2018,3.5025
101,08/16/2018,2.99505
105,08/10/2018,3.185
109,08/06/2018,3.185
113,07/31/2018,3.19
117,07/25/2018,3.385
121,07/19/2018,3.6305
125,07/13/2018,3.945
129,07/09/2018,3.125
133,07/02/2018,2.695
137,06/26/2018,2.43
141,06/20/2018,2.38875
145,06/14/2018,2.38995
149,06/08/2018,2.425
153,06/04/2018,2.445
157,05/29/2018,2.2255
161,05/22/2018,2.47005
165,05/16/2018,1.985
169,05/10/2018,2.06
173,05/04/2018,1.89
177,04/30/2018,1.735
181,04/24/2018,1.59075
185,04/18/2018,1.425
189,04/12/2018,1.33
193,04/06/2018,1.27385
197,04/02/2018,1.32495
201,03/26/2018,1.42
205,03/20/2018,1.345
209,03/14/2018,1.33
213,03/08/2018,1.29
217,03/02/2018,1.26245
221,02/26/2018,1.335
225,02/20/2018,1.32
229,02/13/2018,1.325
233,02/07/2018,1.42
237,02/01/2018,1.455
241,01/26/2018,1.495
245,01/22/2018,1.475
249,01/16/2018,1.46
253,01/09/2018,1.45
257,01/03/2018,1.41
261,12/27/2017,1.3545
265,12/20/2017,1.305
269,12/14/2017,1.325
273,12/08/2017,1.355
277,12/04/2017,1.445
281,11/28/2017,1.46
285,11/21/2017,1.475
289,11/15/2017,1.465
293,11/09/2017,1.52
297,11/03/2017,1.56
301,10/30/2017,1.64
305,10/24/2017,1.56
309,10/18/2017,1.565
313,10/12/2017,1.61
317,10/06/2017,1.5067
321,10/02/2017,1.42
325,09/26/2017,1.3
329,09/20/2017,1.16
333,09/14/2017,1.245
337,09/08/2017,1.27
341,09/01/2017,1.325
345,08/28/2017,1.25
349,08/22/2017,1.205
353,08/16/2017,1.23
357,08/10/2017,1.225
361,08/04/2017,1.26615
365,07/31/2017,1.37
369,07/25/2017,1.35
373,07/19/2017,1.365
377,07/13/2017,1.315
381,07/07/2017,1.3
385,06/30/2017,1.32
389,06/26/2017,1.3015
393,06/20/2017,1.29
397,06/14/2017,1.295
401,06/08/2017,1.375
405,06/02/2017,1.43
409,05/26/2017,1.5
413,05/22/2017,1.6082
417,05/16/2017,1.62
421,05/10/2017,1.45875
425,05/04/2017,1.405
429,04/28/2017,1.485
433,04/24/2017,1.515
437,04/18/2017,1.525
441,04/11/2017,1.62
445,04/05/2017,1.59
449,03/30/2017,1.60135
453,03/24/2017,1.525
457,03/20/2017,1.5375
461,03/14/2017,1.566
465,03/08/2017,1.58
469,03/02/2017,1.655
473,02/24/2017,1.67
477,02/17/2017,1.745
481,02/13/2017,1.77
485,02/07/2017,1.705
489,02/01/2017,1.725
493,01/26/2017,1.77
497,01/20/2017,1.74
501,01/13/2017,1.77
505,01/09/2017,1.765
509,01/03/2017,1.76015
513,12/27/2016,1.69
517,12/20/2016,1.685
521,12/14/2016,1.78
525,12/08/2016,1.74
529,12/02/2016,1.9
533,11/28/2016,1.77945
537,11/21/2016,1.82
541,11/15/2016,1.825
545,11/09/2016,1.805
549,11/03/2016,1.805
553,10/28/2016,1.855
557,10/24/2016,1.995
561,10/18/2016,2.085
565,10/12/2016,2.085
569,10/06/2016,2.055
573,09/30/2016,1.975
577,09/26/2016,1.895
581,09/20/2016,1.955
585,09/14/2016,1.93
589,09/08/2016,1.975
593,09/01/2016,1.83
597,08/26/2016,1.87
601,08/22/2016,1.9275
605,08/16/2016,1.94
609,08/10/2016,1.60825
613,08/04/2016,1.6
617,07/29/2016,1.65505
621,07/25/2016,1.6635
625,07/19/2016,1.77
629,07/13/2016,1.77
633,07/07/2016,1.785
637,06/30/2016,1.815
641,06/24/2016,1.845
645,06/20/2016,1.675
649,06/14/2016,1.7
653,06/08/2016,1.78495
657,06/02/2016,1.68
661,05/26/2016,1.76
665,05/20/2016,1.76
669,05/16/2016,1.945
673,05/10/2016,1.90275
677,05/04/2016,1.865
681,04/28/2016,1.995
685,04/22/2016,1.935
689,04/18/2016,1.74
693,04/12/2016,1.78
697,04/06/2016,1.665
701,03/31/2016,1.685
705,03/24/2016,1.635
709,03/18/2016,1.69075
713,03/14/2016,1.695
717,03/08/2016,1.77
721,03/02/2016,1.49995
725,02/25/2016,1.42
729,02/19/2016,1.37
733,02/12/2016,1.255
737,02/08/2016,1.21995
741,02/02/2016,1.265
745,01/27/2016,1.3
749,01/21/2016,1.07
753,01/14/2016,1.285
757,01/08/2016,1.64
761,01/04/2016,1.84
765,12/28/2015,1.88495
769,12/21/2015,1.675
773,12/15/2015,1.665
777,12/09/2015,1.775
781,12/03/2015,2.145
785,11/27/2015,2.0
789,11/20/2015,2.0275
793,11/16/2015,2.115
797,11/10/2015,2.69
801,11/04/2015,2.705
805,10/29/2015,2.7175
809,10/23/2015,2.655
813,10/19/2015,2.66
817,10/13/2015,2.82
821,10/07/2015,2.985
825,10/01/2015,2.695
829,09/25/2015,2.62
833,09/21/2015,2.76
837,09/15/2015,2.71
841,09/09/2015,2.805
845,09/02/2015,2.96495
849,08/27/2015,3.02495
853,08/21/2015,2.699
857,08/17/2015,2.91
861,08/11/2015,2.965
865,08/05/2015,2.995
869,07/30/2015,3.01
873,07/24/2015,2.985
877,07/20/2015,3.115
881,07/14/2015,3.675
885,07/08/2015,3.795
889,07/01/2015,3.88
893,06/25/2015,4.085
897,06/19/2015,3.86
901,06/15/2015,3.93
905,06/09/2015,4.215
909,06/03/2015,4.075
913,05/28/2015,3.95
917,05/21/2015,4.26
921,05/15/2015,4.1429
925,05/11/2015,4.155
929,05/05/2015,4.65
933,04/29/2015,4.44125
937,04/23/2015,4.4205
941,04/17/2015,4.31
945,04/13/2015,4.06
949,04/07/2015,3.965
953,03/31/2015,3.525
957,03/25/2015,3.42
961,03/19/2015,3.075
965,03/13/2015,2.815
969,03/09/2015,3.015
973,03/03/2015,3.02375
977,02/25/2015,2.94
981,02/19/2015,3.08
985,02/12/2015,3.245
989,02/06/2015,3.2075
993,02/02/2015,3.06
997,01/27/2015,2.97
1001,01/21/2015,3.055
1005,01/14/2015,2.82
1007,01/12/2015,3.065